Column1,Column2,Column3,Column4,Column5,Column6,Column7,Column8,Column9,Column10,Column11,Column12,Column13,Column14
Time,Eul-X,Eul-Y,Eul-Z,Accel-X,Accel-Y,Accel-Z,Omega-X,Omega-Y,Omega-Z,Gyro-X,Gyro-Y,Gyro-Z,Tag
"1519,742","10,7100000381","75,5599975586","-11,1300001144",-259,13,65,0,"0,0500000007","0,0099999998",0,"0,0399999991",0,0
"1519,757","10,8400001526","75,6399993896","-11,0100002289",-259,13,66,"0,0099999998","0,0599999987","0,0099999998",0,"0,0399999991","0,0099999998",0
"1519,798","10,970000267","75,6900024414","-10,8699998856",-262,13,65,0,"0,0399999991","0,0199999996",0,"0,0500000007","0,0199999996",0
"1519,848","11,0100002289","75,7799987793","-10,8500003815",-258,13,67,"0,0099999998","0,0399999991",0,0,"0,0199999996",0,0
"1519,93","10,8599996567","75,7200012207",-11,-258,12,63,0,"-0,0199999996","-0,0099999998",0,"0,0299999993","-0,0099999998",0
"1519,951","10,4200000763","76,0699996948","-11,3900003433",-255,11,64,"-0,0099999998","0,0700000003","-0,0399999991","-0,0099999998","0,0399999991","-0,0199999996",0
"1519,997","10,2299995422","76,1100006104","-11,5699996948",-259,11,63,"-0,0099999998","0,0199999996","-0,0299999993",0,"0,0500000007","-0,0199999996",0
"1520,05","9,9499998093","76,2699966431","-11,9099998474",-263,8,65,"0,0099999998","0,0500000007","-0,0399999991","0,0199999996","0,0500000007","-0,0199999996",0
"1520,098","8,8100004196","76,3600006104","-13,0100002289",-260,11,63,"-0,0199999996","0,0099999998","-0,0900000036",0,"0,0399999991","-0,0199999996",0
"1520,183","8,8400001526","76,3799972534","-13,0399999619",-257,10,62,"0,0199999996","0,0099999998",0,"0,0199999996","0,0099999998","-0,0199999996",0
"1520,203","8,8900003433","76,5999984741","-12,970000267",-259,13,63,0,"0,0500000007",0,0,"0,0500000007",0,0
"1520,256","9,1599998474","76,6100006104","-12,6800003052",-258,12,64,"-0,0099999998","0,0099999998","0,0500000007","-0,0199999996","0,0399999991","-0,0099999998",0
"1520,304","9,5200004578","76,5400009155","-12,3100004196",-262,8,63,0,"-0,0199999996","0,0299999993",0,"0,0399999991",0,0
"1520,35","9,0200004578","76,4899978638","-12,7899999619",-261,10,63,"-0,0099999998","-0,0199999996","-0,0399999991",0,"-0,0099999998","0,0199999996",0
"1520,403","8,9600000381","76,5","-12,8599996567",-259,11,61,0,0,"-0,0099999998","0,0099999998","0,0199999996",0,0
"1520,449","9,0100002289","76,4700012207","-12,8100004196",-259,9,60,0,"-0,0099999998","0,0099999998","-0,0099999998","-0,0199999996","-0,0099999998",0
"1520,499","8,6499996185","76,5400009155","-13,1599998474",-259,8,60,"-0,0099999998","0,0199999996","-0,0299999993","-0,0099999998","-0,0199999996","-0,0099999998",0
"1520,549","8,2600002289","76,5800018311","-13,6599998474",-259,7,60,"0,0399999991","0,0099999998","-0,0399999991","0,0399999991","-0,0199999996","-0,0099999998",0
"1520,601","7,7100000381","76,6399993896","-14,279999733",-259,10,63,"0,0199999996","0,0099999998","-0,0500000007","0,0299999993","-0,0199999996","-0,0099999998",0
"1520,65","7,8899998665","76,5299987793","-14,1499996185",-261,10,63,"0,0199999996","-0,0399999991","0,0199999996","0,0099999998",0,"-0,0099999998",0
"1520,7","8,1300001144","76,4300003052","-13,9099998474",-261,10,61,"0,0099999998","-0,0299999993","0,0199999996",0,"-0,0199999996",0,0
"1520,75","8,5","76,4599990845","-13,6099996567",-261,10,63,"0,0299999993","0,0099999998","0,0199999996","0,0199999996","-0,0199999996","0,0099999998",0
"1520,801","8,4200000763","76,4300003052","-13,6999998093",-261,7,63,0,"-0,0099999998","-0,0099999998","-0,0099999998",0,"-0,0099999998",0
"1520,85","7,8200001717","76,3600006104","-14,3699998856",-259,6,64,"0,0199999996","-0,0299999993","-0,0500000007","0,0299999993","-0,0299999993",0,0
"1520,9","7,0700001717","76,2399978638","-15,1400003433",-256,7,63,0,"-0,0500000007","-0,0599999987","0,0099999998","-0,0199999996",0,0
"1520,95","6,5599999428","76,1900024414","-15,6800003052",-261,7,65,"0,0099999998","-0,0199999996","-0,0399999991","0,0199999996","-0,0199999996","-0,0199999996",0
1521,"6,25","76,0699996948","-16,0900001526",-258,6,66,"0,0299999993","-0,0399999991","-0,0299999993","0,0399999991","-0,0299999993","-0,0199999996",0
"1521,051","5,6599998474","75,9599990845","-16,7999992371",-260,6,63,"0,0299999993","-0,0399999991","-0,0500000007","0,0299999993",0,"-0,0299999993",0
"1521,102","5,2899999619",76,"-17,2999992371",-261,4,65,"0,0399999991","0,0099999998","-0,0399999991","0,0399999991","-0,0299999993","-0,0299999993",0
"1521,158","4,6500000954","75,9800033569","-18,1200008392",-260,7,64,"0,0599999987","-0,0199999996","-0,0700000003","0,0700000003","-0,0199999996","-0,0199999996",0
"1521,215","4,6700000763","76,0599975586","-18,1800003052",-259,2,61,"0,0199999996","0,0299999993","-0,0099999998","0,0199999996",0,"-0,0299999993",0
"1521,256","3,3199999332","76,3300018311","-19,3400001526",-260,6,66,"-0,0700000003","0,0799999982","-0,0900000036","-0,0500000007","0,0099999998","-0,0199999996",0
"1521,309","3,4100000858","76,2200012207","-19,2299995422",-261,4,66,"-0,0099999998","-0,0500000007","0,0099999998","-0,0099999998",0,"-0,0299999993",0
"1521,369","3,3800001144","76,1399993896","-19,4300003052",-257,0,63,"0,0599999987","-0,0299999993","-0,0099999998","0,0500000007","0,0099999998","-0,0099999998",0
"1521,409","2,3699998856","76,2200012207","-20,4799995422",-259,4,64,0,"0,0199999996","-0,0700000003","0,0099999998",0,"0,0099999998",0
"1521,451","2,6900000572","76,2099990845","-20,1900005341",-261,6,65,"0,0199999996",0,"0,0299999993","0,0099999998",0,"0,0099999998",0
"1521,501","3,4300000668","76,1399993896","-19,4300003052",-262,0,64,0,"-0,0199999996","0,0799999982","-0,0199999996","-0,0099999998","0,0299999993",0
"1521,552","2,8399999142","76,2600021362","-19,7700004578",-260,2,60,"-0,0900000036","0,0399999991","-0,0299999993","-0,0799999982","0,0199999996","0,0500000007",0
"1521,604","2,8099999428","76,6100006104","-19,4400005341",-262,-3,62,"-0,1199999973","0,1199999973","0,0199999996","-0,1199999973","0,0500000007","0,0500000007",0
"1521,666","1,2400000095","76,9000015259","-20,5599994659",-260,-12,61,"-0,1599999964","0,0900000036","-0,0900000036","-0,1400000006","0,0799999982","0,0399999991",0
"1521,708","-3,9300000668","77,2200012207","-25,0300006866",-255,-16,58,"-0,2300000042","0,0900000036","-0,2800000012","-0,1700000018","0,1000000015","-0,0099999998",100
"1521,752","-7,6100001335","77,3600006104","-28,1800003052",-257,-18,56,"-0,25","0,0900000036","-0,2800000012","-0,1800000072","0,0799999982","-0,0399999991",100
"1521,803","-11,470000267","77,5599975586","-31,3500003815",-257,-18,54,"-0,3000000119","0,1199999973","-0,2599999905","-0,2300000042","0,0900000036","-0,0500000007",100
"1521,854","-15,8500003815","77,8600006104","-34,6899986267",-258,-15,52,"-0,3799999952","0,1599999964","-0,2099999934","-0,3100000024","0,1199999973","-0,0799999982",100
"1521,913","-18,6900005341","78,2099990845","-36,1599998474",-255,-14,52,"-0,4799999893","0,1400000006","-0,0700000003","-0,4199999869","0,1099999994","-0,0700000003",100
"1521,982","-19,6499996185","78,2799987793","-35,2200012207",-255,-11,51,"-0,5500000119",0,"0,0599999987","-0,5899999738","0,0199999996","0,0099999998",100
"1522,005","-18,2600002289","78,9000015259","-30,5200004578",-254,-16,35,"-0,8399999738","0,0799999982","0,2800000012","-0,8899999857","0,0900000036","0,1599999964",100
"1522,061","-19,2900009155","79,7900009155","-29,9500007629",-255,-16,22,"-1,0599999428","0,5400000215","0,25","-1,0900000334","0,2899999917","0,2700000107",100
"1522,103","-16,2099990845","81,1500015259","-22,5100002289",-263,-28,28,"-1,3899999857","0,3100000024","0,5","-1,3999999762","-0,1199999973","0,5299999714",100
"1522,156","-20,3099994659","81,8899993896","-22,3299999237",-257,-18,29,"-1,7400000095","0,2800000012","0,0900000036","-1,7300000191","0,0399999991","0,4399999976",100
"1522,207","-23,1299991608","82,0800018311","-19,9599990845",-246,-32,25,"-1,7400000095","0,0199999996","0,1199999973","-1,7699999809","-0,0900000036","0,25",100
"1522,253","-28,3199996948","81,9100036621","-19,8299999237",-234,-41,20,"-1,7899999619","-0,0599999987","-0,0199999996","-1,7599999905","-0,200000003","0,3600000143",100
"1522,337","-39,4799995422","82,3199996948","-26,3600006104",-208,-46,4,"-1,7799999714","0,2899999917","-0,2199999988","-1,7400000095","0,1000000015","0,3000000119",100
"1522,356","-56,7900009155","82,3399963379","-39,3100013733",-192,-54,-4,-1,"0,2800000012","-0,2700000107","-0,9200000167","-0,0799999982","0,3000000119",100
"1522,404","-64,5599975586","82,2799987793","-46,0699996948",-161,-53,-30,"-0,75","0,5199999809","-0,3700000048","-0,6399999857","0,150000006","0,2899999917",100
"1522,459","-95,7699966431","81,8099975586","-75,7399978638",-161,-50,-39,"-0,6600000262","1,4199999571","-0,4300000072","-0,4799999893","0,6399999857","0,2399999946",100
"1522,504","-126,5100021362","79,1100006104","-104,8700027466",-121,-57,-25,"-0,6299999952","1,7200000286","-0,25","-0,4099999964","0,9900000095","0,3000000119",100
"1522,596","-134,6199951172","77,0800018311","-112,4400024414",-107,-40,-6,"-0,2700000107","0,9700000286","-0,2099999934","-0,2800000012","0,75","0,5600000024",100
"1522,611","-125,8399963379","78,2699966431","-106,9300003052",-65,-26,-27,"0,7200000286","-0,349999994","0,0199999996","0,6999999881","-0,1299999952","0,4799999893",100
"1522,657","-128,3300018311",79,"-110,3199996948",-106,5,-32,"0,5799999833","0,0599999987","0,6800000072","0,6700000167","-0,3100000024","0,9900000095",100
"1522,704","-149,4199981689","82,4000015259","-132,9100036621",-114,41,6,"0,4699999988","-0,0799999982","1,8799999952","0,6499999762","-0,4600000083","1,4800000191",100
"1522,754","104,5899963379","83,8700027466","120,8399963379",-103,118,-26,"-0,0299999993","-1,9199999571","3,5799999237","0,1599999964","-1,5499999523","2,6300001144",100
"1522,804","74,8099975586","68,8099975586","92,8499984741",-488,203,263,"-0,8000000119","-2,2699999809","5,2199997902","-0,6999999881","-2,7599999905","3,0799999237",100
"1522,854","65,0899963379","58,7400016785","79,3000030518",-742,447,501,"0,8199999928","-3,3299999237","2,5899999142","0,9200000167","-3,3699998856","2,5899999142",100
"1522,906","72,6800003052","46,0999984741","74,7200012207",-576,918,434,"3,75","-2,8800001144","3,7799999714","3,9900000095","-3,0199999809","3,7300000191",100
"1522,954","64,2200012207","28,9599990845","76,0699996948",-177,95,38,"-2,9200000763","-1,7400000095","5,9400000572","-2,6099998951","-2,0299999714","5,8600001335",100
"1523,005","65,8300018311","35,8199996948","82,0800018311",-186,-87,34,"-0,6999999881","2,6800000668","-1,4600000381","-0,5600000024","1,3099999428","0,2099999934",100
"1523,055","51,5200004578","38,6899986267","81,0400009155",119,16,101,"-4,8200001717","0,1299999952","-0,8199999928","-3,5099999905",-1,"2,8399999142",100
"1523,105","44,3199996948","25,7900009155","81,3099975586",64,186,169,"-2,4600000381","-3,0299999714","3,5999999046","-1,1399999857","-0,8600000143","1,7799999714",100
"1523,158","44,4599990845","15,3199996948","83,6200027466",178,262,254,"-0,1700000018","-2,1400001049","3,2300000191","-0,5400000215","0,3100000024","0,9900000095",100
"1523,228","38,6399993896","-2,8199999332","87,8000030518",49,160,213,"-1,8300000429","-3,7000000477","5,1500000954","-2,0799999237","0,3100000024","1,6000000238",100
"1523,263","43,1199989319","-5,7199997902","87,1399993896",72,149,181,"1,1100000143","-0,6499999762","0,3600000143","1,2999999523","0,1599999964","0,2399999946",100
"1523,317","44,1899986267","-6,4699997902","84,8099975586",-4,122,227,"0,400000006","-1,0800000429","-0,5699999928","0,75","-0,1199999973","-0,9499999881",100
"1523,356","38,9399986267","-1,9099999666","84,2399978638",-47,102,208,"-1,7100000381",1,"-1,1299999952","-0,2399999946","0,6700000167","-0,5400000215",100
"1523,406","38,0699996948","1,2400000095","84,5899963379",-44,131,243,"-0,3899999857","1,2000000477","-0,7599999905","0,6600000262","0,5500000119","0,1800000072",100
"1523,511","34,6599998474","3,1199998856","87,1600036621",-91,145,279,"-1,2400000095","1,0399999619","0,349999994","-0,2800000012","0,0099999998","0,2899999917",100
"1523,546","35,9000015259","11,3599996567","89,5500030518",-71,166,201,"0,1299999952","1,3600000143","-0,4799999893","0,9700000286","-0,2199999988","-0,1400000006",100
"1523,574","38,2799987793","11,9099998474","90,2300033569",-63,176,182,"1,1200000048","0,4199999869","0,1000000015","0,9300000072","-0,2700000107","-0,2099999934",100
"1523,611","40,3600006104","12,0900001526","90,6500015259",-52,158,162,"1,25","0,2399999946","0,1299999952","0,8899999857","-0,3400000036","-0,2899999917",100
"1523,661","43,3699989319","11,779999733","90,8000030518",-28,174,167,"1,3999999762","-0,0599999987","0,150000006","1,2400000095","-0,5400000215","-0,2800000012",100
"1523,713","46,7099990845","10,8100004196","91,4400024414",-16,197,154,"1,1299999952","-0,0900000036","0,400000006","1,0299999714","-0,200000003","-0,349999994",100
"1523,757","50,6199989319","9,3500003815","90,6399993896",-38,193,146,"1,3500000238","-0,5299999714","0,200000003","0,9399999976","-0,2700000107","-0,3899999857",100
"1523,815","52,6199989319","9,8900003433","90,7799987793",-63,219,105,"0,7799999714","0,1800000072","-0,1299999952","0,6399999857","0,0500000007","-0,2700000107",100
"1523,858","55,9300003052","12,029999733","92,5699996948",-71,242,129,"0,8899999857","0,8100000024","-0,2199999988","-0,0399999991","0,3000000119","-0,0700000003",100
"1523,907","58,0900001526","12,7299995422","94,1200027466",-55,232,124,"0,7400000095","0,6700000167","0,0900000036","0,2199999988","0,3400000036","0,1800000072",100
"1523,984","58,8800010681","11,5399999619","94,8399963379",-78,224,144,"0,2300000042","-0,0099999998","0,4900000095","-0,0799999982","-0,1000000015","0,349999994",100
"1524,011","58,8400001526","11,5399999619","96,7699966431",-22,189,167,"-0,1000000015","0,3700000048","0,2199999988","0,0799999982","0,0900000036","0,6100000143",100
"1524,058","57,7200012207","10,0200004578","96,9700012207",-8,187,161,"-0,7400000095","-0,4099999964","0,8999999762","0,1599999964","0,0199999996","0,5199999809",100
"1524,124","56,0600013733","7,6799998283","96,6600036621",-10,211,132,"-0,6000000238","-0,5699999928","0,6700000167","0,1299999952","-0,1000000015","0,1599999964",100
"1524,159","56,9900016785","6,25","96,2200012207",-23,205,135,"0,2599999905","-0,3100000024","0,25","0,1099999994","-0,0799999982","-0,150000006",100
"1524,211","56,7000007629","6,3800001144","96,1699981689",-35,214,133,"-0,150000006","0,0199999996","-0,0700000003","-0,1000000015","0,0399999991","-0,1299999952",100
"1524,26","56,6500015259","7,0399999619","96,0400009155",-40,219,143,"-0,0099999998","0,0799999982","-0,2099999934","-0,1199999973","-0,0199999996","-0,1099999994",100
"1524,317","56,4500007629","7,4800000191","95,8799972534",-36,209,146,"-0,0599999987","0,0399999991","-0,1599999964","-0,0599999987","-0,0700000003","-0,0399999991",100
"1524,358","55,7799987793",7,"95,4499969482",-43,203,150,"-0,1800000072","-0,1899999976","0,0500000007","-0,0299999993","-0,3100000024","0,0299999993",100
"1524,409","55,3300018311","7,3099999428","95,6500015259",-37,212,150,"-0,2099999934","0,150000006","-0,0599999987","0,0199999996","-0,0799999982","0,0799999982",100
"1524,472","55,5099983215","7,0999999046","96,1200027466",-27,217,141,"0,0399999991","0,0900000036","0,150000006","0,1299999952","-0,0599999987","0,150000006",100
"1524,511","56,9099998474","7,0199999809","97,2300033569",-19,212,140,"0,349999994","0,2399999946","0,1800000072","0,25","0,1800000072","0,0299999993",100
"1524,558","57,2400016785","6,7399997711","97,75",-24,210,140,"0,1199999973","0,1299999952","0,2300000042","0,1800000072","0,1700000018","-0,0199999996",100
"1524,61","57,4099998474","6,6100001335","98,1100006104",-33,221,132,"0,0500000007","0,0900000036","0,1099999994","0,1599999964","0,0799999982","-0,0199999996",100
"1524,658","58,0800018311","6,8600001335","98,4100036621",-33,223,128,"0,2099999934","0,1299999952","-0,0199999996","0,0799999982","0,0299999993","0,0099999998",100
"1524,708","58,5600013733","6,9499998093","98,5299987793",-31,221,129,"0,1700000018","0,0599999987","-0,0099999998","0,0099999998","-0,0299999993",0,100
"1524,759","58,6699981689","6,9499998093","98,6600036621",-31,215,134,"0,0299999993","0,0399999991","0,0299999993","-0,0500000007","-0,0099999998",0,100
"1524,808","58,1199989319","6,8699998856","98,6600036621",-32,216,131,"-0,1899999976","-0,0099999998","0,0199999996","-0,1099999994","-0,0500000007","0,0199999996",100
"1524,863","57,6699981689","6,8400001526","98,7099990845",-31,216,133,"-0,1599999964","0,0099999998","0,0199999996","-0,200000003","-0,0500000007","0,0299999993",100
"1524,911","57,0600013733","6,6799998283","98,8600006104",-30,213,145,"-0,200000003","0,0099999998","0,0700000003","-0,2399999946","-0,0399999991","0,0599999987",100
"1524,964","56,1300010681","6,5799999237","99,0800018311",-27,210,148,"-0,3400000036","0,0500000007","0,0700000003","-0,2099999934",0,"0,0500000007",100
"1525,008","55,1599998474","6,2800002098","99,2300033569",-32,208,149,"-0,3300000131","-0,0099999998","0,1099999994","-0,1899999976","-0,0299999993","0,0500000007",100
"1525,058","54,5900001526","6,4499998093","99,5500030518",-29,209,153,"-0,2399999946","0,1400000006","0,0199999996","-0,150000006","0,0500000007","0,0599999987",100
"1525,12","54,0999984741","6,3800001144","99,7099990845",-28,207,149,"-0,1800000072","0,0299999993","0,0500000007","-0,0799999982",0,"0,0299999993",100
"1525,159","53,9700012207","6,1399998665","99,6800003052",-26,208,147,"-0,0399999991","-0,0500000007","0,0500000007","-0,0299999993","-0,0799999982","0,0199999996",100
"1525,208","54,0699996948","5,9800000191","99,6699981689",-27,209,151,"0,0399999991","-0,0500000007","0,0599999987",0,"-0,0799999982","0,0099999998",100
"1525,263",54,"5,9499998093","99,8099975586",-27,207,150,"-0,0299999993","0,0399999991","0,0399999991","-0,0099999998","-0,0299999993",0,100
"1525,308","53,9000015259","5,9400000572","100,0400009155",-28,207,150,"-0,0399999991","0,0599999987","0,0500000007","-0,0199999996","-0,0099999998","0,0199999996",100
"1525,36","53,7599983215","5,9899997711","100,2600021362",-29,207,150,"-0,0599999987","0,0799999982","0,0299999993","-0,0500000007",0,"0,0299999993",100
"1525,41","53,5900001526","6,0599999428","100,4800033569",-26,206,152,"-0,0700000003","0,0700000003","0,0199999996","-0,0700000003",0,"0,0299999993",100
"1525,49","53,3600006104","5,8099999428","100,3899993896",-24,206,152,"-0,0799999982","-0,0799999982","0,0500000007","-0,0500000007","-0,1099999994","0,0099999998",100
"1525,518","53,1899986267","5,5799999237","100,6800003052",-27,206,152,"-0,0399999991","0,0199999996","0,0799999982","-0,0399999991","-0,0099999998","0,0199999996",100
"1525,564","53,1500015259","5,6599998474","100,8000030518",-26,207,153,"-0,0299999993","0,1000000015",0,"-0,0500000007","0,0299999993","0,0199999996",100
"1525,614","53,1399993896","5,7100000381","100,9100036621",-26,205,151,"-0,0099999998","0,0500000007","0,0099999998","-0,0199999996",0,0,100
"1525,66","53,1800003052","5,7600002289","100,9899978638",-25,208,155,"0,0099999998","0,0299999993",0,"-0,0099999998","-0,0099999998",0,100
"1525,711","53,1500015259","5,6700000763","101,0100021362",-28,205,151,"-0,0099999998","-0,0099999998","0,0299999993",0,"-0,0299999993",0,100
"1525,762","53,2200012207","5,6700000763","100,9700012207",-25,206,152,"0,0299999993","-0,0099999998","-0,0099999998",0,"-0,0799999982","0,0199999996",100
"1525,813","53,2400016785","5,5900001526","100,8799972534",-24,204,156,"0,0099999998","-0,0399999991","0,0099999998",0,"-0,0700000003","-0,0099999998",100
"1525,864","53,0699996948","5,5100002289","100,8099975586",-24,204,156,"-0,0500000007","-0,0399999991","0,0099999998","0,0199999996","-0,0399999991","-0,0099999998",100
"1525,914","53,0099983215","5,5599999428","100,9100036621",-24,203,154,"-0,0199999996","0,0399999991","0,0099999998","0,0399999991","0,0299999993","-0,0099999998",100
"1525,966","53,1899986267","5,6100001335","100,9899978638",-24,206,153,"0,0599999987","0,0299999993",0,"0,1000000015","0,0199999996","-0,0099999998",100
"1526,024","53,3100013733","5,6900000572","101,1600036621",-25,207,147,"0,0399999991","0,0599999987","0,0099999998","0,0399999991","0,0500000007","-0,0099999998",100
"1526,068","53,75","5,8099999428","101,3300018311",-27,207,151,"0,1299999952","0,0599999987",0,"0,0299999993","0,0399999991","-0,0099999998",100
"1526,121","53,8600006104","5,9899997711","101,4499969482",-28,207,152,"0,0399999991","0,0799999982","-0,0299999993","0,0500000007","0,0500000007","-0,0099999998",100
"1526,16","53,9099998474","6,1300001144","101,5500030518",-26,208,150,"0,0099999998","0,0500000007","-0,0199999996","0,0399999991","0,0399999991","0,0099999998",100
"1526,215","54,0299987793","6,0999999046","101,5999984741",-27,206,148,"0,0500000007","0,0099999998","0,0299999993","0,0399999991","0,0199999996","0,0099999998",100
"1526,26","54,1800003052","6,1300001144","101,6500015259",-27,208,149,"0,0399999991","0,0199999996",0,"0,0399999991","0,0199999996","0,0099999998",100
"1526,31","54,1800003052","6,1199998856","101,6699981689",-31,209,147,0,0,"0,0099999998",0,"0,0099999998","0,0099999998",100
"1526,361","54,2000007629","6,2199997902","101,6299972534",-29,211,145,"0,0099999998","0,0099999998","-0,0399999991","-0,0399999991","-0,0399999991","0,0299999993",100
"1526,429","54,5299987793","6,2399997711","101,6399993896",-23,207,149,"0,1199999973","0,0099999998",0,"0,0099999998","-0,0199999996","0,0199999996",100
"1526,464","54,5699996948","5,9400000572","101,6600036621",-27,208,149,"0,0099999998","-0,0399999991","0,0700000003","0,0500000007","0,0099999998",0,100
"1526,519","54,6300010681","6,0300002098","101,6900024414",-27,208,151,"0,0299999993","0,0399999991","-0,0199999996","0,0599999987","0,0299999993","-0,0099999998",100
"1526,565","54,4900016785","6,1100001335","101,6500015259",-27,209,146,"-0,0399999991",0,"-0,0299999993","0,0299999993","0,0099999998","-0,0199999996",100
"1526,61","54,5699996948","6,1799998283","101,7300033569",-29,209,146,"0,0299999993","0,0399999991",0,"-0,0099999998","0,0399999991",0,100
"1526,689","54,7299995422","6,3400001526","101,8700027466",-28,209,151,"0,0599999987","0,0799999982","-0,0199999996","0,0299999993","0,0599999987","0,0099999998",100
"1526,715","54,7799987793","6,3299999237","101,8499984741",-26,210,140,"0,0099999998",0,0,"0,0799999982","0,0099999998",0,100
"1526,767","55,0499992371","6,2800002098","101,8499984741",-26,212,141,"0,1800000072","-0,0199999996","0,0199999996","0,0599999987","-0,0199999996","-0,0099999998",100
"1526,81","55,25","6,25","101,9100036621",-28,211,144,"0,0700000003","0,0099999998","0,0199999996","-0,0399999991","0,0199999996","-0,0099999998",100
"1526,86","55,1300010681","6,3200001717","101,9400024414",-28,211,146,"-0,0500000007","0,0299999993","-0,0199999996","-0,0700000003","0,0199999996","-0,0099999998",100
"1526,911","54,9900016785","6,3400001526","101,9499969482",-32,210,147,"-0,0500000007","0,0099999998","-0,0099999998","-0,0500000007",0,0,100
"1526,961","54,75","6,4800000191","101,9599990845",-29,209,146,"-0,0799999982","0,0299999993","-0,0399999991","-0,0700000003","-0,0099999998","0,0299999993",100
"1527,032","54,5800018311","6,4099998474","101,9400024414",-26,207,148,"-0,0599999987","-0,0199999996","0,0099999998","-0,0700000003","-0,0299999993","0,0199999996",100
"1527,061","54,3499984741","6,0799999237","101,7900009155",-27,206,151,"-0,0500000007","-0,0799999982","0,0500000007","-0,0299999993","-0,0399999991","0,0199999996",100
"1527,114","54,1699981689","6,0300002098","101,7600021362",-27,208,153,"-0,1099999994","-0,0299999993","0,0099999998","-0,0399999991","-0,0199999996","0,0199999996",100
"1527,163","53,8899993896","6,0799999237","101,7699966431",-27,208,150,"-0,0900000036","0,0099999998","-0,0099999998","-0,0299999993","0,0199999996",0,100
"1527,213","53,8499984741","6,0599999428","101,75",-27,206,150,"-0,0099999998","-0,0099999998",0,"-0,0299999993","-0,0099999998","0,0099999998",100
"1527,261","53,7299995422","6,0700001717","101,7600021362",-27,206,151,"-0,0399999991",0,0,"-0,0299999993",0,"0,0099999998",100
"1527,311","53,5999984741","6,0500001907","101,7399978638",-27,206,150,"-0,0500000007","-0,0099999998",0,"-0,0399999991",0,"0,0099999998",100
"1527,361","53,5699996948","6,0900001526","101,8199996948",-27,206,151,"-0,0099999998","0,0299999993",0,"-0,0299999993","0,0199999996","0,0099999998",100
"1527,415","53,5099983215","6,0700001717","101,8199996948",-29,209,152,"-0,0199999996",0,"0,0099999998","-0,0199999996","-0,0099999998","0,0099999998",100
"1527,466","53,5999984741","6,0500001907","101,7300033569",-29,205,149,"0,0299999993","-0,0299999993","-0,0099999998",0,"-0,0500000007","0,0199999996",100
"1527,515","53,5900001526",6,"101,5999984741",-26,206,149,0,"-0,0399999991","-0,0099999998","-0,0199999996","-0,0799999982","0,0299999993",100
"1527,572","53,5299987793","5,8800001144","101,5500030518",-26,206,153,"-0,0199999996","-0,0399999991","0,0199999996","-0,0500000007","-0,0500000007","0,0099999998",100
"1527,62","53,2299995422","5,7100000381","101,5100021362",-26,205,151,"-0,0900000036","-0,0399999991","0,0399999991","-0,0599999987","-0,0399999991","0,0299999993",100
"1527,668","53,0600013733","5,6199998856","101,4899978638",-25,206,154,"-0,0599999987","-0,0299999993","0,0199999996","-0,0799999982","-0,0299999993","0,0399999991",100
"1527,715","52,9199981689","5,5700001717","101,4800033569",-24,202,155,"-0,0500000007","-0,0099999998","0,0099999998","-0,0500000007","-0,0099999998","0,0199999996",100
"1527,765","52,5600013733","5,5599999428","101,5400009155",-24,203,156,"-0,1299999952","0,0099999998","0,0199999996","-0,0799999982","0,0299999993","0,0199999996",100
"1527,816","52,3100013733","5,5999999046","101,7099990845",-24,202,157,"-0,1000000015","0,0599999987","0,0199999996","-0,0700000003","0,0700000003","0,0199999996",100
"1527,866","52,1100006104","5,5900001526","101,7900009155",-26,203,155,"-0,0700000003","0,0199999996","0,0199999996","-0,0399999991","0,0399999991","0,0199999996",100
"1527,917","52,1599998474","5,6700000763","101,8099975586",-26,203,158,"0,0099999998","0,0199999996","-0,0199999996","-0,0199999996","0,0099999998","0,0099999998",100
"1527,978","52,0800018311","5,6900000572","101,8399963379",-26,203,156,"-0,0299999993","0,0099999998",0,"-0,0099999998",0,"0,0199999996",100
"1528,016","52,1300010681","5,6799998283","101,8799972534",-24,202,156,"0,0099999998","0,0099999998","0,0099999998",0,"-0,0099999998","0,0199999996",100
"1528,068","52,1199989319","5,6100001335","101,8799972534",-24,202,156,"-0,0099999998","-0,0199999996","0,0199999996","-0,0099999998","-0,0099999998","0,0099999998",100
"1528,117","52,0600013733","5,5399999619","101,8799972534",-25,203,156,"-0,0199999996","-0,0099999998","0,0199999996","-0,0199999996","-0,0099999998","0,0099999998",100
"1528,173","52,0600013733","5,4899997711","101,8499984741",-24,202,155,0,"-0,0199999996","0,0099999998","-0,0199999996","-0,0299999993","0,0199999996",100
"1528,219","51,9500007629","5,3600001335","101,7799987793",-26,204,155,"-0,0299999993","-0,0399999991","0,0199999996","-0,0500000007","-0,0399999991","0,0199999996",100
"1528,274","52,0499992371","5,4400000572","101,8000030518",-24,202,156,"0,0399999991","0,0199999996","-0,0199999996","-0,0199999996","-0,0199999996","0,0099999998",100
"1528,327","51,9799995422","5,4099998474","101,7900009155",-23,201,159,"-0,0199999996","-0,0099999998","0,0099999998","-0,0299999993","-0,0199999996",0,100
"1528,372","51,75","5,2800002098","101,7699966431",-26,201,157,"-0,0799999982","-0,0299999993","0,0299999993","-0,0299999993","-0,0199999996","0,0099999998",100
"1528,424","51,6899986267","5,3600001335","101,7799987793",-22,201,158,"-0,0299999993","0,0199999996","-0,0199999996","-0,0299999993","-0,0199999996","0,0199999996",100
"1528,474","51,6699981689","5,25","101,8000030518",-23,202,159,"-0,0099999998","-0,0199999996","0,0299999993",0,"-0,0099999998",0,100
"1528,527","51,6899986267","5,2300000191","101,8199996948",-24,201,159,"0,0099999998",0,"0,0099999998","0,0099999998",0,0,100
"1528,59","51,6500015259","5,3000001907","101,8199996948",-24,202,160,"-0,0099999998","0,0199999996","-0,0199999996",0,"0,0099999998",0,100
"1528,617","51,5800018311","5,3899998665","101,8899993896",-24,201,157,"-0,0199999996","0,0299999993","-0,0099999998",0,"0,0199999996",0,100
"1528,715","51,6100006104","5,4200000763","101,9300003052",-24,201,159,"0,0199999996","0,0399999991",0,"-0,0099999998","0,0299999993","0,0099999998",100
"1528,742","51,6800003052","5,5799999237","102,0299987793",-25,203,158,"0,0099999998","0,0299999993","-0,0099999998","0,0199999996","0,0299999993","-0,0099999998",100
"1528,769","51,7599983215","5,6199998856","102,0500030518",-25,204,157,"0,0500000007","0,0299999993","-0,0099999998","0,0299999993","0,0299999993",0,100
"1528,818","51,8899993896","5,6599998474","102,0699996948",-25,201,156,"0,0799999982","0,0199999996","-0,0099999998","0,0399999991","0,0199999996","-0,0099999998",100
"1528,869","52,0499992371","5,7199997902","102,0599975586",-24,201,157,"0,0599999987","0,0099999998","-0,0199999996","0,0500000007","0,0099999998","-0,0099999998",100
"1528,95","52,0699996948","5,6799998283","102,0299987793",-25,202,157,"0,0099999998","-0,0199999996",0,"0,0299999993",0,"-0,0099999998",100
"1528,973","52,1399993896","5,7199997902","102,0999984741",-27,203,156,"0,0099999998","0,0199999996",0,"0,0199999996","0,0199999996",0,100
"1529,018","52,1899986267","5,7800002098","102,1299972534",-26,202,157,"0,0299999993","0,0399999991","-0,0199999996","0,0199999996","0,0199999996","0,0099999998",100
"1529,09","52,2000007629","5,8099999428","102,1200027466",-27,203,155,0,0,"-0,0099999998","0,0199999996",0,0,100
"1529,119","52,1899986267","6,0599999428","102,25",-26,203,157,"-0,0099999998","0,0599999987","-0,0299999993","-0,0299999993","0,0500000007",0,100
"1529,169","52,2099990845","6,0799999237","102,2799987793",-29,203,155,"0,0199999996","0,0199999996",0,"0,0199999996","0,0399999991","-0,0099999998",100
"1529,218","52,3899993896","6,1999998093","102,2900009155",-27,204,155,"0,0599999987","0,0299999993","-0,0299999993","0,0399999991","0,0099999998","0,0099999998",100
"1529,267","52,5200004578","6,1799998283","102,2600021362",-25,204,154,"0,0500000007","-0,0099999998",0,"0,0299999993",0,0,100
"1529,317","52,6699981689","6,0599999428","102,2399978638",-28,203,156,"0,0500000007","-0,0299999993","0,0299999993","0,0299999993",0,0,100
"1529,367","52,5999984741","6,1799998283","102,2600021362",-26,203,156,"-0,0199999996","0,0299999993","-0,0299999993","0,0099999998","0,0299999993",0,100
